Wavelength data table
Sample name	250.0nm	300.0nm	350.0nm	400.0nm	450.0nm	500.0nm	550.0nm	600.0nm	650.0nm	700.0nm	750.0nm	800.0nm	
'PPI-INU(EM)		153.2	532.0	107.9								

Sample:	'PPI-INU(EM)
File name:	PPI-INU-6.FDS
Run date:	'15:26:07, 01/18/2024
Operator:	Administrator
Comment:	'

Instrument
Model:	F-7000 FL Spectrophotometer
Serial number:	2822-002
ROM Version:	5J14000 12

Instrument parameters
Measurement type:	Wavelength scan
Scan mode:	Emission
Data mode:	Fluorescence
EX WL:	285.0 nm
EM  Start WL:	300.0 nm
EM  End WL:	400.0 nm
Scan speed:	1200 nm/min
Delay:	0.1 s
EX Slit:	5.0 nm
EM Slit:	5.0 nm
PMT Voltage:	400 V
Response:	Auto 
Corrected spectra:	Off
Shutter control:	On

Peak integration
Integration method:	Rectangular
Sensitivity:	2
Threshold:	1.000

Peaks
No.	Start(nm)	Apex(nm)	End(nm)	Height(Data)	Valley(nm)	Valley(Data)
1	300.0	340.4	400.0	571.3	400.0	107.9

Data points
nm	Data
300.0	153.2
300.2	153.7
300.4	155.4
300.6	157.6
300.8	160.0
301.0	162.6
301.2	164.1
301.4	166.5
301.6	169.0
301.8	171.2
302.0	173.1
302.2	175.8
302.4	178.0
302.6	180.7
302.8	182.8
303.0	185.6
303.2	188.3
303.4	190.1
303.6	192.8
303.8	195.6
304.0	198.0
304.2	200.6
304.4	202.8
304.6	206.0
304.8	208.3
305.0	210.9
305.2	213.3
305.4	215.7
305.6	218.5
305.8	221.4
306.0	223.6
306.2	225.8
306.4	228.5
306.6	231.9
306.8	233.9
307.0	236.4
307.2	238.9
307.4	241.6
307.6	244.8
307.8	247.5
308.0	249.4
308.2	252.4
308.4	255.1
308.6	257.5
308.8	260.0
309.0	262.4
309.2	264.6
309.4	267.4
309.6	269.6
309.8	272.0
310.0	274.5
310.2	277.9
310.4	280.0
310.6	282.9
310.8	285.4
311.0	287.9
311.2	290.6
311.4	292.8
311.6	296.7
311.8	300.9
312.0	303.1
312.2	305.8
312.4	308.9
312.6	311.2
312.8	314.2
313.0	316.8
313.2	319.5
313.4	324.1
313.6	327.3
313.8	329.7
314.0	332.9
314.2	335.6
314.4	338.3
314.6	342.1
314.8	344.1
315.0	346.7
315.2	349.3
315.4	352.3
315.6	354.8
315.8	357.9
316.0	360.8
316.2	363.0
316.4	365.5
316.6	368.1
316.8	370.2
317.0	373.1
317.2	375.8
317.4	378.5
317.6	381.0
317.8	383.1
318.0	386.0
318.2	389.0
318.4	391.8
318.6	394.9
318.8	397.7
319.0	400.1
319.2	401.3
319.4	404.2
319.6	406.2
319.8	409.6
320.0	411.8
320.2	414.3
320.4	416.8
320.6	420.0
320.8	422.2
321.0	424.0
321.2	426.7
321.4	429.0
321.6	430.5
321.8	432.9
322.0	435.3
322.2	438.0
322.4	441.7
322.6	444.0
322.8	445.3
323.0	448.1
323.2	451.1
323.4	453.6
323.6	455.7
323.8	458.1
324.0	460.6
324.2	462.8
324.4	465.0
324.6	466.9
324.8	468.4
325.0	471.6
325.2	473.1
325.4	474.8
325.6	475.9
325.8	477.7
326.0	480.6
326.2	482.4
326.4	484.2
326.6	485.9
326.8	488.7
327.0	490.2
327.2	493.3
327.4	495.4
327.6	497.9
327.8	500.1
328.0	501.8
328.2	504.8
328.4	507.2
328.6	508.4
328.8	510.7
329.0	512.7
329.2	514.9
329.4	517.4
329.6	519.4
329.8	520.8
330.0	521.1
330.2	522.5
330.4	524.7
330.6	525.9
330.8	527.6
331.0	529.5
331.2	531.4
331.4	532.8
331.6	535.2
331.8	536.4
332.0	538.6
332.2	539.0
332.4	539.4
332.6	540.9
332.8	543.1
333.0	544.8
333.2	546.1
333.4	547.6
333.6	548.6
333.8	550.0
334.0	550.8
334.2	550.5
334.4	553.0
334.6	554.7
334.8	555.3
335.0	555.8
335.2	556.5
335.4	558.0
335.6	559.2
335.8	559.4
336.0	562.0
336.2	562.0
336.4	563.1
336.6	563.4
336.8	564.7
337.0	564.1
337.2	565.5
337.4	565.9
337.6	565.2
337.8	565.6
338.0	566.9
338.2	568.1
338.4	569.0
338.6	569.6
338.8	570.0
339.0	570.0
339.2	569.4
339.4	569.5
339.6	570.5
339.8	569.9
340.0	570.9
340.2	570.4
340.4	571.3
340.6	570.8
340.8	570.2
341.0	568.9
341.2	569.7
341.4	569.5
341.6	570.0
341.8	570.1
342.0	569.9
342.2	570.6
342.4	570.3
342.6	569.6
342.8	570.0
343.0	568.8
343.2	568.1
343.4	567.7
343.6	567.0
343.8	566.6
344.0	565.7
344.2	565.4
344.4	565.9
344.6	565.0
344.8	564.5
345.0	563.3
345.2	562.4
345.4	560.7
345.6	560.2
345.8	559.2
346.0	558.5
346.2	557.1
346.4	557.1
346.6	555.6
346.8	555.5
347.0	554.2
347.2	553.6
347.4	551.5
347.6	550.3
347.8	548.3
348.0	547.7
348.2	546.0
348.4	544.3
348.6	542.2
348.8	540.8
349.0	539.9
349.2	538.1
349.4	536.5
349.6	534.3
349.8	532.4
350.0	532.0
350.2	530.2
350.4	529.2
350.6	526.9
350.8	525.4
351.0	523.9
351.2	521.8
351.4	520.5
351.6	519.4
351.8	517.8
352.0	515.8
352.2	514.3
352.4	512.5
352.6	509.1
352.8	509.0
353.0	506.9
353.2	503.9
353.4	501.6
353.6	499.2
353.8	498.1
354.0	496.4
354.2	494.2
354.4	493.3
354.6	491.6
354.8	489.4
355.0	486.8
355.2	484.7
355.4	483.0
355.6	481.3
355.8	477.5
356.0	475.7
356.2	473.5
356.4	471.4
356.6	469.4
356.8	467.7
357.0	465.9
357.2	463.6
357.4	461.5
357.6	459.6
357.8	457.7
358.0	456.4
358.2	453.4
358.4	450.8
358.6	447.7
358.8	446.6
359.0	444.8
359.2	442.5
359.4	440.9
359.6	438.0
359.8	435.5
360.0	434.3
360.2	431.8
360.4	430.4
360.6	428.4
360.8	426.6
361.0	424.8
361.2	422.3
361.4	419.7
361.6	417.3
361.8	414.6
362.0	413.6
362.2	411.2
362.4	408.9
362.6	406.7
362.8	403.9
363.0	402.1
363.2	399.4
363.4	396.7
363.6	394.5
363.8	392.6
364.0	389.8
364.2	387.2
364.4	385.2
364.6	383.0
364.8	380.3
365.0	377.8
365.2	376.4
365.4	374.3
365.6	372.6
365.8	370.5
366.0	369.0
366.2	366.5
366.4	363.7
366.6	361.4
366.8	359.3
367.0	357.6
367.2	355.3
367.4	353.1
367.6	350.9
367.8	348.8
368.0	346.6
368.2	344.2
368.4	341.8
368.6	340.0
368.8	337.9
369.0	336.5
369.2	334.3
369.4	332.1
369.6	329.8
369.8	327.0
370.0	325.1
370.2	323.4
370.4	320.7
370.6	319.0
370.8	317.2
371.0	316.1
371.2	313.5
371.4	311.0
371.6	308.5
371.8	307.4
372.0	305.5
372.2	302.8
372.4	300.6
372.6	298.4
372.8	295.9
373.0	293.8
373.2	291.6
373.4	290.1
373.6	287.9
373.8	286.1
374.0	284.4
374.2	282.8
374.4	280.4
374.6	278.7
374.8	276.6
375.0	275.0
375.2	273.1
375.4	271.8
375.6	270.1
375.8	268.5
376.0	266.7
376.2	264.7
376.4	262.3
376.6	260.4
376.8	258.6
377.0	256.9
377.2	254.8
377.4	253.1
377.6	251.3
377.8	250.0
378.0	247.9
378.2	247.2
378.4	244.9
378.6	242.6
378.8	240.3
379.0	238.7
379.2	236.4
379.4	235.1
379.6	232.4
379.8	231.3
380.0	229.7
380.2	228.3
380.4	226.0
380.6	224.6
380.8	222.7
381.0	221.7
381.2	219.6
381.4	218.8
381.6	216.7
381.8	215.7
382.0	214.5
382.2	213.0
382.4	210.9
382.6	209.4
382.8	207.6
383.0	206.4
383.2	204.4
383.4	202.7
383.6	200.5
383.8	199.4
384.0	197.8
384.2	196.4
384.4	194.8
384.6	193.2
384.8	191.7
385.0	190.6
385.2	189.1
385.4	187.8
385.6	186.3
385.8	185.0
386.0	184.1
386.2	183.3
386.4	181.8
386.6	180.5
386.8	179.0
387.0	177.8
387.2	176.6
387.4	175.1
387.6	173.7
387.8	172.2
388.0	170.9
388.2	169.4
388.4	168.2
388.6	167.1
388.8	166.2
389.0	164.7
389.2	163.3
389.4	161.9
389.6	160.5
389.8	159.1
390.0	157.9
390.2	156.9
390.4	156.0
390.6	154.6
390.8	153.9
391.0	153.0
391.2	152.0
391.4	150.6
391.6	149.8
391.8	148.1
392.0	146.9
392.2	145.8
392.4	144.8
392.6	143.6
392.8	142.8
393.0	141.7
393.2	140.9
393.4	140.0
393.6	138.6
393.8	137.5
394.0	136.3
394.2	135.2
394.4	133.8
394.6	132.8
394.8	131.6
395.0	130.9
395.2	129.7
395.4	128.8
395.6	128.1
395.8	127.1
396.0	126.0
396.2	124.9
396.4	123.8
396.6	123.2
396.8	122.2
397.0	121.5
397.2	120.7
397.4	119.9
397.6	118.7
397.8	117.8
398.0	117.2
398.2	116.1
398.4	115.0
398.6	114.6
398.8	113.7
399.0	112.9
399.2	111.8
399.4	110.9
399.6	109.9
399.8	109.3
400.0	107.9

